File: Instruments/EIS_C01.mpt
EC-Lab ASCII FILE
Nb header lines : 68

Galvano Electrochemical Impedance Spectroscopy

Run on channel : 1 (SN 66181)
User :
CE vs. WE compliance from -10 V to 10 V
Electrode connection : standard
Potential control : Ewe
Ewe ctrl range : min = -10.00 V, max = 10.00 V
Safety Limits :
	Do not start on E overload
Acquisition started on : 10/21/2024 15:48:27.372
Technique started on : 10/21/2024 15:50:53.754
Loaded Setting File :  NONE
Saved on :
	File : 3-12-002_BoL-02_03_GEIS_C01.mpr
	Directory : C:\Users\patri\OneDrive\Desktop\Electrolysis Data\October_21_2024-3-12-02\Pstat\
	Host : 10.0.109.145
Device : SP-50e (SN .003546)
Address : USB
EC-Lab for windows v11.43 (software)
Internet server v11.40 (firmware)
Command interpretor v11.40 (firmware)
Electrode material :
Initial state :
Electrolyte :
Comments :
Electrode surface area : 4.000 cm²
Characteristic mass : 0.001 g
Volume (V) : 0.001 cm³
Thickness (t) : 0.000 cm
Diameter (d) : 0.000 cm
Cell constant (k=t/A) : 0.000 cm-1
Cycle Definition : Charge/Discharge alternance
Mode                Single sine
Is                  -500.000
unit Is             mA
vs.                 <None>
tIs (h:m:s)         0:00:0.0000
record              0
dE (mV)             0.000
dt (s)              0.000
fi                  1.000
unit fi             MHz
ff                  100.000
unit ff             mHz
Nd                  10
Points              per decade
spacing             Logarithmic
Ia/Va               Ia
Ia                  250.000
unit  Ia            mA
va pourcent         0.10
pw                  0.10
Na                  2
corr                0
E range min (V)     -10.000
E range max (V)     10.000
I Range             1 A
Bandwidth           5
nc cycles           0
goto Ns'            0
nr cycles           0
inc. cycle          0

freq/Hz	Re(Z)/Ohm	-Im(Z)/Ohm	|Z|/Ohm	Phase(Z)/deg	time/s	<Ewe>/V	<I>/mA	Cs/µF	Cp/µF	cycle number	|Ewe|/V	|I|/A	Ns	I Range	(Q-Qo)/mA.h	Re(Y)/Ohm-1	Im(Y)/Ohm-1	|Y|/Ohm-1	Phase(Y)/deg	Re(C)/nF	Im(C)/nF	|C|/nF	Phase(C)/deg	Re(M)	Im(M)	|M|	Phase(M)/deg	Re(Permittivity)	Im(Permittivity)	|Permittivity|	Phase(Permittivity)/deg	Re(Resistivity)/Ohm.cm	Im(Resistivity)/Ohm.cm	|Resistivity|/Ohm.cm	Phase(Resistivity)/deg	Re(Conductivity)/mS/cm	Im(Conductivity)/mS/cm	|Conductivity|/mS/cm	Phase(Conductivity)/deg	Tan(Delta)	Loss Angle(Delta)/deg	dq/mA.h
1.00002e+06	0.441418	0.151815	0.466795	-18.9794	146.382	-3.34992	-500.279	1.04833	0.110885	1	7.33247e-05	0.000157081	0	9	-0.454244	2.0258	0.696725	2.14227	18.9794	110.885	322.411	340.946	-71.0206	0.0000000E+000	0.0000000E+000	0.0000000E+000	71.0206	0.0000000E+000	0.0000000E+000	0.0000000E+000	-71.0206	0.0000000E+000	0.0000000E+000	0.0000000E+000	-18.9794	0.0000000E+000	0.0000000E+000	0.0000000E+000	18.9794	2.90761	18.9794	-0.454244
791679	0.307374	0.157839	0.345531	-27.1808	149.44	-3.35082	-500.329	1.27367	0.265772	1	0.000105734	0.000306003	0	9	-0.878576	2.5745	1.32202	2.89409	27.1808	265.772	517.563	581.813	-62.8192	0.0000000E+000	0.0000000E+000	0.0000000E+000	62.8192	0.0000000E+000	0.0000000E+000	0.0000000E+000	-62.8192	0.0000000E+000	0.0000000E+000	0.0000000E+000	-27.1808	0.0000000E+000	0.0000000E+000	0.0000000E+000	27.1808	1.9474	27.1808	-0.424331
626763	0.0000000E+000	0.0000000E+000	0.0000000E+000	0.0000000E+000	149.589	-3.34801	-500.225	0.0000000E+000	0.0000000E+000	1	0.0000000E+000	0.0000000E+000	0	9	-0.898836	0.0000000E+000	0.0000000E+000	0.0000000E+000	0.0000000E+000	0.0000000E+000	0.0000000E+000	0.0000000E+000	-90	0.0000000E+000	0.0000000E+000	0.0000000E+000	90	0.0000000E+000	0.0000000E+000	0.0000000E+000	-90	0.0000000E+000	0.0000000E+000	0.0000000E+000	0.0000000E+000	0.0000000E+000	0.0000000E+000	0.0000000E+000	0.0000000E+000	0.0000000E+000	0.0000000E+000	-0.02026
496196	0.320958	0.0823009	0.331342	-14.3821	152.646	-3.34667	-500.14	3.89729	0.240447	1	0.000445298	0.00134392	0	9	-1.32296	2.92345	0.74964	3.01803	14.3821	240.447	937.698	968.035	-75.6179	0.0000000E+000	0.0000000E+000	0.0000000E+000	75.6179	0.0000000E+000	0.0000000E+000	0.0000000E+000	-75.6179	0.0000000E+000	0.0000000E+000	0.0000000E+000	-14.3821	0.0000000E+000	0.0000000E+000	0.0000000E+000	14.3821	3.89981	14.3821	-0.424124
392824	0.342046	0.0673836	0.34862	-11.1446	155.704	-3.34913	-500.095	6.01268	0.224631	1	0.00160076	0.00459171	0	9	-1.74712	2.81436	0.554432	2.86845	11.1446	224.632	1140.25	1162.17	-78.8554	0.0000000E+000	0.0000000E+000	0.0000000E+000	78.8554	0.0000000E+000	0.0000000E+000	0.0000000E+000	-78.8554	0.0000000E+000	0.0000000E+000	0.0000000E+000	-11.1446	0.0000000E+000	0.0000000E+000	0.0000000E+000	11.1446	5.07611	11.1446	-0.424162
310997	0.343309	0.0595828	0.348441	-9.84584	158.762	-3.34926	-500.158	8.58902	0.251145	1	0.00378032	0.0108492	0	9	-2.17129	2.82765	0.490751	2.86992	9.84584	251.145	1447.07	1468.7	-80.1542	0.0000000E+000	0.0000000E+000	0.0000000E+000	80.1542	0.0000000E+000	0.0000000E+000	0.0000000E+000	-80.1542	0.0000000E+000	0.0000000E+000	0.0000000E+000	-9.84584	0.0000000E+000	0.0000000E+000	0.0000000E+000	9.84584	5.76189	9.84584	-0.424173
246205	0.343634	0.0625614	0.349282	-10.3182	161.82	-3.34685	-500.212	10.3328	0.331495	1	0.00785205	0.0224805	0	9	-2.59551	2.81672	0.512807	2.86302	10.3182	331.495	1820.82	1850.75	-79.6818	0.0000000E+000	0.0000000E+000	0.0000000E+000	79.6818	0.0000000E+000	0.0000000E+000	0.0000000E+000	-79.6818	0.0000000E+000	0.0000000E+000	0.0000000E+000	-10.3182	0.0000000E+000	0.0000000E+000	0.0000000E+000	10.3182	5.49274	10.3182	-0.424218
194923	0.347797	0.0700947	0.35479	-11.3947	164.878	-3.34472	-500.209	11.6486	0.454674	1	0.0159362	0.0449174	0	9	-3.01984	2.76301	0.556855	2.81857	11.3947	454.674	2256.01	2301.37	-78.6053	0.0000000E+000	0.0000000E+000	0.0000000E+000	78.6053	0.0000000E+000	0.0000000E+000	0.0000000E+000	-78.6053	0.0000000E+000	0.0000000E+000	0.0000000E+000	-11.3947	0.0000000E+000	0.0000000E+000	0.0000000E+000	11.3947	4.96181	11.3947	-0.424322
154311	0.354448	0.0809728	0.36358	-12.8682	167.936	-3.34546	-500.26	12.7375	0.631777	1	0.030906	0.0850048	0	9	-3.44418	2.68135	0.612547	2.75043	12.8682	631.777	2765.52	2836.77	-77.1318	0.0000000E+000	0.0000000E+000	0.0000000E+000	77.1318	0.0000000E+000	0.0000000E+000	0.0000000E+000	-77.1318	0.0000000E+000	0.0000000E+000	0.0000000E+000	-12.8682	0.0000000E+000	0.0000000E+000	0.0000000E+000	12.8682	4.37738	12.8682	-0.424345
122170	0.36765	0.0914159	0.378845	-13.9634	170.994	-3.34782	-500.201	14.2506	0.829763	1	0.0515558	0.136087	0	9	-3.86845	2.5616	0.63694	2.6396	13.9634	829.763	3337.08	3438.7	-76.0366	0.0000000E+000	0.0000000E+000	0.0000000E+000	76.0366	0.0000000E+000	0.0000000E+000	0.0000000E+000	-76.0366	0.0000000E+000	0.0000000E+000	0.0000000E+000	-13.9634	0.0000000E+000	0.0000000E+000	0.0000000E+000	13.9634	4.02173	13.9634	-0.424272
96719.1	0.38233	0.100806	0.395396	-14.7706	174.052	-3.3468	-500.209	16.3238	1.06104	1	0.0715957	0.181073	0	9	-4.29176	2.44553	0.644796	2.52911	14.7706	1061.04	4024.22	4161.75	-75.2294	0.0000000E+000	0.0000000E+000	0.0000000E+000	75.2294	0.0000000E+000	0.0000000E+000	0.0000000E+000	-75.2294	0.0000000E+000	0.0000000E+000	0.0000000E+000	-14.7706	0.0000000E+000	0.0000000E+000	0.0000000E+000	14.7706	3.79273	14.7706	-0.42331
76566.2	0.402807	0.108549	0.417176	-15.082	177.11	-3.3465	-499.78	19.1494	1.2965	1	0.0913713	0.219023	0	9	-4.71646	2.3145	0.623718	2.39707	15.082	1296.5	4811.05	4982.68	-74.918	0.0000000E+000	0.0000000E+000	0.0000000E+000	74.918	0.0000000E+000	0.0000000E+000	0.0000000E+000	-74.918	0.0000000E+000	0.0000000E+000	0.0000000E+000	-15.082	0.0000000E+000	0.0000000E+000	0.0000000E+000	15.082	3.71081	15.082	-0.424701
60616.5	0.424941	0.113239	0.43977	-14.9215	177.394	-3.34691	-500.228	23.1865	1.53735	1	0.11257	0.255976	0	9	-4.75547	2.19724	0.585522	2.27392	14.9215	1537.35	5769.08	5970.41	-75.0785	0.0000000E+000	0.0000000E+000	0.0000000E+000	75.0785	0.0000000E+000	0.0000000E+000	0.0000000E+000	-75.0785	0.0000000E+000	0.0000000E+000	0.0000000E+000	-14.9215	0.0000000E+000	0.0000000E+000	0.0000000E+000	14.9215	3.75262	14.9215	-0.039005
47988.4	0.448512	0.113878	0.462743	-14.2464	177.824	-3.34635	-500.197	29.1236	1.76377	1	0.119678	0.258627	0	9	-4.81453	2.09457	0.531811	2.16102	14.2464	1763.77	6946.69	7167.1	-75.7536	0.0000000E+000	0.0000000E+000	0.0000000E+000	75.7536	0.0000000E+000	0.0000000E+000	0.0000000E+000	-75.7536	0.0000000E+000	0.0000000E+000	0.0000000E+000	-14.2464	0.0000000E+000	0.0000000E+000	0.0000000E+000	14.2464	3.93855	14.2464	-0.0590592
38014	0.474723	0.117508	0.48905	-13.903	178.254	-3.34204	-494.059	35.6294	2.05701	1	0.126211	0.258073	0	9	-4.87447	1.98488	0.491316	2.04478	13.903	2057.01	8310.17	8560.97	-76.097	0.0000000E+000	0.0000000E+000	0.0000000E+000	76.097	0.0000000E+000	0.0000000E+000	0.0000000E+000	-76.097	0.0000000E+000	0.0000000E+000	0.0000000E+000	-13.903	0.0000000E+000	0.0000000E+000	0.0000000E+000	13.903	4.03992	13.903	-0.0599444
30080.9	0.491269	0.102843	0.501918	-11.8236	178.684	-3.34584	-500.151	51.4466	2.15992	1	0.129878	0.258763	0	9	-4.9336	1.95009	0.408233	1.99236	11.8236	2159.91	10317.7	10541.4	-78.1764	0.0000000E+000	0.0000000E+000	0.0000000E+000	78.1764	0.0000000E+000	0.0000000E+000	0.0000000E+000	-78.1764	0.0000000E+000	0.0000000E+000	0.0000000E+000	-11.8236	0.0000000E+000	0.0000000E+000	0.0000000E+000	11.8236	4.7769	11.8236	-0.0591312
23808.6	0.508273	0.0933606	0.516777	-10.4082	179.114	-3.34579	-500.165	71.6015	2.33692	1	0.132547	0.256488	0	9	-4.99277	1.90323	0.349589	1.93507	10.4082	2336.92	12722.6	12935.5	-79.5918	0.0000000E+000	0.0000000E+000	0.0000000E+000	79.5918	0.0000000E+000	0.0000000E+000	0.0000000E+000	-79.5918	0.0000000E+000	0.0000000E+000	0.0000000E+000	-10.4082	0.0000000E+000	0.0000000E+000	0.0000000E+000	10.4082	5.4442	10.4082	-0.0591707
18853.9	0.522245	0.0833863	0.52886	-9.07178	179.398	-3.34295	-500.161	101.233	2.5167	1	0.14497	0.274118	0	9	-5.03183	1.86721	0.298135	1.89086	9.07178	2516.7	15762	15961.6	-80.9282	0.0000000E+000	0.0000000E+000	0.0000000E+000	80.9282	0.0000000E+000	0.0000000E+000	0.0000000E+000	-80.9282	0.0000000E+000	0.0000000E+000	0.0000000E+000	-9.07178	0.0000000E+000	0.0000000E+000	0.0000000E+000	9.07178	6.26296	9.07178	-0.0390604
14929.1	0.533166	0.0735963	0.538222	-7.85923	179.828	-3.34266	-500.166	144.854	2.70844	1	0.138665	0.257636	0	9	-5.09103	1.84052	0.254058	1.85797	7.85923	2708.44	19621.2	19807.3	-82.1408	0.0000000E+000	0.0000000E+000	0.0000000E+000	82.1408	0.0000000E+000	0.0000000E+000	0.0000000E+000	-82.1408	0.0000000E+000	0.0000000E+000	0.0000000E+000	-7.85923	0.0000000E+000	0.0000000E+000	0.0000000E+000	7.85923	7.24447	7.85923	-0.0591941
11811.5	0.541796	0.0650594	0.545688	-6.84735	180.112	-3.34391	-500.161	207.111	2.94398	1	0.145649	0.266909	0	9	-5.13013	1.81948	0.218485	1.83255	6.84735	2943.98	24516.6	24692.8	-83.1526	0.0000000E+000	0.0000000E+000	0.0000000E+000	83.1526	0.0000000E+000	0.0000000E+000	0.0000000E+000	-83.1526	0.0000000E+000	0.0000000E+000	0.0000000E+000	-6.84735	0.0000000E+000	0.0000000E+000	0.0000000E+000	6.84735	8.32771	6.84735	-0.0390962
9351.33	0.548709	0.058112	0.551777	-6.04548	180.4	-3.34568	-500.143	292.874	3.24852	1	0.150868	0.273421	0	9	-5.16995	1.80225	0.19087	1.81233	6.04548	3248.52	30673.3	30844.9	-83.9545	0.0000000E+000	0.0000000E+000	0.0000000E+000	83.9545	0.0000000E+000	0.0000000E+000	0.0000000E+000	-83.9545	0.0000000E+000	0.0000000E+000	0.0000000E+000	-6.04548	0.0000000E+000	0.0000000E+000	0.0000000E+000	6.04548	9.44226	6.04548	-0.039822
7408.9	0.555136	0.0523505	0.557599	-5.38719	180.914	-3.34598	-500.084	410.341	3.61696	1	0.142526	0.255606	0	9	-5.24049	1.78548	0.168375	1.7934	5.38719	3616.96	38355	38525.2	-84.6128	0.0000000E+000	0.0000000E+000	0.0000000E+000	84.6128	0.0000000E+000	0.0000000E+000	0.0000000E+000	-84.6128	0.0000000E+000	0.0000000E+000	0.0000000E+000	-5.38719	0.0000000E+000	0.0000000E+000	0.0000000E+000	5.38719	10.6042	5.38719	-0.0705386
5865.09	0.559929	0.0473195	0.561925	-4.83058	181.325	-3.34614	-500.089	573.463	4.06659	1	0.145365	0.258692	0	9	-5.29694	1.77328	0.149859	1.7796	4.83058	4066.58	48119.6	48291.2	-85.1694	0.0000000E+000	0.0000000E+000	0.0000000E+000	85.1694	0.0000000E+000	0.0000000E+000	0.0000000E+000	-85.1694	0.0000000E+000	0.0000000E+000	0.0000000E+000	-4.83058	0.0000000E+000	0.0000000E+000	0.0000000E+000	4.83058	11.8329	4.83058	-0.0564544
4641.49	0.563304	0.0441233	0.565029	-4.47881	181.785	-3.34585	-500.068	777.132	4.73903	1	0.147537	0.261114	0	9	-5.36028	1.76442	0.138206	1.76982	4.47881	4739.03	60501.2	60686.5	-85.5212	0.0000000E+000	0.0000000E+000	0.0000000E+000	85.5212	0.0000000E+000	0.0000000E+000	0.0000000E+000	-85.5212	0.0000000E+000	0.0000000E+000	0.0000000E+000	-4.47881	0.0000000E+000	0.0000000E+000	0.0000000E+000	4.47881	12.7666	4.47881	-0.063337
3676.18	0.567593	0.0445095	0.569335	-4.48385	182.246	-3.34606	-500.066	972.681	5.94485	1	0.149769	0.26306	0	9	-5.42385	1.75106	0.137315	1.75643	4.48385	5944.85	75809.7	76042.4	-85.5162	0.0000000E+000	0.0000000E+000	0.0000000E+000	85.5162	0.0000000E+000	0.0000000E+000	0.0000000E+000	-85.5162	0.0000000E+000	0.0000000E+000	0.0000000E+000	-4.48385	0.0000000E+000	0.0000000E+000	0.0000000E+000	4.48385	12.7522	4.48385	-0.063572
2910.93	0.572253	0.04497	0.574017	-4.49331	182.707	-3.34475	-500.066	1215.81	7.4621	1	0.151589	0.264084	0	9	-5.48715	1.73675	0.136481	1.74211	4.49331	7462.11	94956.8	95249.6	-85.5067	0.0000000E+000	0.0000000E+000	0.0000000E+000	85.5067	0.0000000E+000	0.0000000E+000	0.0000000E+000	-85.5067	0.0000000E+000	0.0000000E+000	0.0000000E+000	-4.49331	0.0000000E+000	0.0000000E+000	0.0000000E+000	4.49331	12.7252	4.49331	-0.0633012
2302.79	0.57803	0.0453636	0.579807	-4.48736	183.169	-3.34437	-500.069	1523.55	9.32625	1	0.15339	0.264554	0	9	-5.55072	1.71943	0.13494	1.72471	4.48736	9326.25	118836	119202	-85.5126	0.0000000E+000	0.0000000E+000	0.0000000E+000	85.5126	0.0000000E+000	0.0000000E+000	0.0000000E+000	-85.5126	0.0000000E+000	0.0000000E+000	0.0000000E+000	-4.48736	0.0000000E+000	0.0000000E+000	0.0000000E+000	4.48736	12.7421	4.48736	-0.0635712
1823.25	0.585023	0.0463097	0.586853	-4.52603	183.63	-3.34443	-500.077	1884.96	11.7378	1	0.155409	0.264818	0	9	-5.61427	1.69869	0.134466	1.704	4.52603	11737.8	148282	148746	-85.474	0.0000000E+000	0.0000000E+000	0.0000000E+000	85.474	0.0000000E+000	0.0000000E+000	0.0000000E+000	-85.474	0.0000000E+000	0.0000000E+000	0.0000000E+000	-4.52603	0.0000000E+000	0.0000000E+000	0.0000000E+000	4.52603	12.6328	4.52603	-0.0635474
1443.61	0.590127	0.0472922	0.592019	-4.58184	184.091	-3.34289	-500.072	2331.2	14.8761	1	0.156882	0.264994	0	9	-5.6776	1.68374	0.134933	1.68914	4.58184	14876.1	185628	186223	-85.4182	0.0000000E+000	0.0000000E+000	0.0000000E+000	85.4182	0.0000000E+000	0.0000000E+000	0.0000000E+000	-85.4182	0.0000000E+000	0.0000000E+000	0.0000000E+000	-4.58184	0.0000000E+000	0.0000000E+000	0.0000000E+000	4.58184	12.4783	4.58184	-0.0633326
1142.44	0.596288	0.0487658	0.598279	-4.67537	184.553	-3.34349	-500.075	2856.74	18.9799	1	0.158611	0.265113	0	9	-5.74156	1.6659	0.136241	1.67146	4.67537	18979.9	232079	232853	-85.3246	0.0000000E+000	0.0000000E+000	0.0000000E+000	85.3246	0.0000000E+000	0.0000000E+000	0.0000000E+000	-85.3246	0.0000000E+000	0.0000000E+000	0.0000000E+000	-4.67537	0.0000000E+000	0.0000000E+000	0.0000000E+000	4.67537	12.2276	4.67537	-0.0639613
905.29	0.602465	0.0505196	0.60458	-4.79331	185.013	-3.34319	-500.074	3479.95	24.2988	1	0.160333	0.265197	0	9	-5.80511	1.64826	0.138214	1.65404	4.79331	24298.8	289773	290790	-85.2067	0.0000000E+000	0.0000000E+000	0.0000000E+000	85.2067	0.0000000E+000	0.0000000E+000	0.0000000E+000	-85.2067	0.0000000E+000	0.0000000E+000	0.0000000E+000	-4.79331	0.0000000E+000	0.0000000E+000	0.0000000E+000	4.79331	11.9254	4.79331	-0.0635516
716.146	0.609138	0.0527095	0.611414	-4.94556	185.474	-3.34376	-500.065	4216.29	31.3355	1	0.162182	0.265258	0	9	-5.86858	1.62946	0.140999	1.63555	4.94556	31335.5	362129	363482	-85.0544	0.0000000E+000	0.0000000E+000	0.0000000E+000	85.0544	0.0000000E+000	0.0000000E+000	0.0000000E+000	-85.0544	0.0000000E+000	0.0000000E+000	0.0000000E+000	-4.94556	0.0000000E+000	0.0000000E+000	0.0000000E+000	4.94556	11.5565	4.94556	-0.0634653
567.36	0.615022	0.0553746	0.61751	-5.14485	185.933	-3.34323	-500.068	5065.83	40.7365	1	0.163832	0.26531	0	9	-5.93178	1.61288	0.145219	1.61941	5.14485	40736.5	452443	454273	-84.8551	0.0000000E+000	0.0000000E+000	0.0000000E+000	84.8551	0.0000000E+000	0.0000000E+000	0.0000000E+000	-84.8551	0.0000000E+000	0.0000000E+000	0.0000000E+000	-5.14485	0.0000000E+000	0.0000000E+000	0.0000000E+000	5.14485	11.1066	5.14485	-0.0631966
448.994	0.623135	0.0585844	0.625883	-5.37091	186.395	-3.34324	-500.065	6050.58	53.0122	1	0.166074	0.265344	0	9	-5.99578	1.59073	0.149553	1.59774	5.37091	53012.2	563865	566352	-84.6291	0.0000000E+000	0.0000000E+000	0.0000000E+000	84.6291	0.0000000E+000	0.0000000E+000	0.0000000E+000	-84.6291	0.0000000E+000	0.0000000E+000	0.0000000E+000	-5.37091	0.0000000E+000	0.0000000E+000	0.0000000E+000	5.37091	10.6365	5.37091	-0.0639999
355.569	0.631913	0.0618009	0.634928	-5.58575	186.855	-3.34406	-500.069	7242.71	68.6188	1	0.168492	0.265371	0	9	-6.05951	1.5675	0.153302	1.57498	5.58575	68618.8	701625	704972	-84.4142	0.0000000E+000	0.0000000E+000	0.0000000E+000	84.4142	0.0000000E+000	0.0000000E+000	0.0000000E+000	-84.4142	0.0000000E+000	0.0000000E+000	0.0000000E+000	-5.58575	0.0000000E+000	0.0000000E+000	0.0000000E+000	5.58575	10.225	5.58575	-0.0637304
281.531	0.642775	0.0651131	0.646064	-5.78433	187.314	-3.34328	-500.063	8682.1	88.1881	1	0.171458	0.265388	0	9	-6.12331	1.53995	0.155997	1.54783	5.78433	88188.1	870564	875019	-84.2157	0.0000000E+000	0.0000000E+000	0.0000000E+000	84.2157	0.0000000E+000	0.0000000E+000	0.0000000E+000	-84.2157	0.0000000E+000	0.0000000E+000	0.0000000E+000	-5.78433	0.0000000E+000	0.0000000E+000	0.0000000E+000	5.78433	9.87166	5.78433	-0.0638036
222.79	0.653049	0.0682982	0.656611	-5.97049	187.779	-3.34321	-500.074	10459.6	113.166	1	0.17427	0.265408	0	9	-6.18779	1.51471	0.158414	1.52297	5.97049	113166	1.08207e+06	1.08797e+06	-84.0295	0.0000000E+000	0.0000000E+000	0.0000000E+000	84.0295	0.0000000E+000	0.0000000E+000	0.0000000E+000	-84.0295	0.0000000E+000	0.0000000E+000	0.0000000E+000	-5.97049	0.0000000E+000	0.0000000E+000	0.0000000E+000	5.97049	9.56173	5.97049	-0.0644813
176.411	0.663632	0.0717702	0.667501	-6.17241	188.237	-3.34227	-500.073	12570.4	145.323	1	0.177171	0.265425	0	9	-6.25064	1.48944	0.161079	1.49812	6.17241	145323	1.34374e+06	1.35158e+06	-83.8276	0.0000000E+000	0.0000000E+000	0.0000000E+000	83.8276	0.0000000E+000	0.0000000E+000	0.0000000E+000	-83.8276	0.0000000E+000	0.0000000E+000	0.0000000E+000	-6.17241	0.0000000E+000	0.0000000E+000	0.0000000E+000	6.17241	9.24662	6.17241	-0.0628486
139.687	0.674452	0.0749009	0.678598	-6.33699	188.699	-3.34079	-500.063	15211.7	185.321	1	0.180122	0.265432	0	9	-6.31458	1.46462	0.162653	1.47363	6.33699	185322	1.66874e+06	1.679e+06	-83.663	0.0000000E+000	0.0000000E+000	0.0000000E+000	83.663	0.0000000E+000	0.0000000E+000	0.0000000E+000	-83.663	0.0000000E+000	0.0000000E+000	0.0000000E+000	-6.33699	0.0000000E+000	0.0000000E+000	0.0000000E+000	6.33699	9.00459	6.33699	-0.0639397
110.46	0.686454	0.0782736	0.690902	-6.50512	189.158	-3.34031	-500.063	18407.8	236.265	1	0.183394	0.265441	0	9	-6.37784	1.43807	0.163977	1.44738	6.50512	236265	2.07203e+06	2.08545e+06	-83.4949	0.0000000E+000	0.0000000E+000	0.0000000E+000	83.4949	0.0000000E+000	0.0000000E+000	0.0000000E+000	-83.4949	0.0000000E+000	0.0000000E+000	0.0000000E+000	-6.50512	0.0000000E+000	0.0000000E+000	0.0000000E+000	6.50512	8.76992	6.50512	-0.0632564
87.4534	0.698192	0.0815215	0.702935	-6.65975	189.63	-3.3396	-500.053	22324	300.252	1	0.186593	0.265448	0	9	-6.44306	1.41301	0.164984	1.42261	6.65975	300252	2.57151e+06	2.58898e+06	-83.3402	0.0000000E+000	0.0000000E+000	0.0000000E+000	83.3402	0.0000000E+000	0.0000000E+000	0.0000000E+000	-83.3402	0.0000000E+000	0.0000000E+000	0.0000000E+000	-6.65975	0.0000000E+000	0.0000000E+000	0.0000000E+000	6.65975	8.56452	6.65975	-0.0652217
69.3124	0.711625	0.0842445	0.716594	-6.75144	190.095	-3.34001	-500.078	27256.3	376.708	1	0.190228	0.265462	0	9	-6.50725	1.38581	0.164057	1.39549	6.75144	376708	3.1821e+06	3.20432e+06	-83.2486	0.0000000E+000	0.0000000E+000	0.0000000E+000	83.2486	0.0000000E+000	0.0000000E+000	0.0000000E+000	-83.2486	0.0000000E+000	0.0000000E+000	0.0000000E+000	-6.75144	0.0000000E+000	0.0000000E+000	0.0000000E+000	6.75144	8.44713	6.75144	-0.0641938
54.8771	0.725554	0.0869285	0.730743	-6.83203	190.558	-3.3402	-500.054	33363.1	472.13	1	0.193985	0.265462	0	9	-6.57111	1.35875	0.162792	1.36847	6.83203	472130	3.94066e+06	3.96885e+06	-83.168	0.0000000E+000	0.0000000E+000	0.0000000E+000	83.168	0.0000000E+000	0.0000000E+000	0.0000000E+000	-83.168	0.0000000E+000	0.0000000E+000	0.0000000E+000	-6.83203	0.0000000E+000	0.0000000E+000	0.0000000E+000	6.83203	8.34656	6.83203	-0.0638544
43.4028	0.740261	0.088371	0.745517	-6.80765	191.034	-3.34095	-500.049	41494.7	583.039	1	0.197907	0.265463	0	9	-6.63711	1.33189	0.158999	1.34135	6.80765	583039	4.88396e+06	4.91864e+06	-83.1923	0.0000000E+000	0.0000000E+000	0.0000000E+000	83.1923	0.0000000E+000	0.0000000E+000	0.0000000E+000	-83.1923	0.0000000E+000	0.0000000E+000	0.0000000E+000	-6.80765	0.0000000E+000	0.0000000E+000	0.0000000E+000	6.80765	8.37673	6.80765	-0.0660037
34.3946	0.755271	0.0903114	0.760651	-6.81876	191.502	-3.34079	-500.063	51237.3	722.272	1	0.201929	0.265469	0	9	-6.7019	1.30536	0.156089	1.31466	6.81876	722272	6.04033e+06	6.08336e+06	-83.1812	0.0000000E+000	0.0000000E+000	0.0000000E+000	83.1812	0.0000000E+000	0.0000000E+000	0.0000000E+000	-83.1812	0.0000000E+000	0.0000000E+000	0.0000000E+000	-6.81876	0.0000000E+000	0.0000000E+000	0.0000000E+000	6.81876	8.36296	6.81876	-0.0647923
27.2023	0.768997	0.0902446	0.774274	-6.69325	191.93	-3.34033	-500.07	64832.6	880.736	1	0.205549	0.265473	0	9	-6.76055	1.28273	0.150533	1.29153	6.69325	880736	7.50498e+06	7.55648e+06	-83.3067	0.0000000E+000	0.0000000E+000	0.0000000E+000	83.3067	0.0000000E+000	0.0000000E+000	0.0000000E+000	-83.3067	0.0000000E+000	0.0000000E+000	0.0000000E+000	-6.69325	0.0000000E+000	0.0000000E+000	0.0000000E+000	6.69325	8.52126	6.69325	-0.0586453
21.5517	0.783308	0.0898377	0.788443	-6.54268	192.362	-3.33941	-500.072	82201.4	1067.23	1	0.209312	0.265475	0	9	-6.82061	1.26006	0.144517	1.26832	6.54268	1.06723e+06	9.3053e+06	9.3663e+06	-83.4573	0.0000000E+000	0.0000000E+000	0.0000000E+000	83.4573	0.0000000E+000	0.0000000E+000	0.0000000E+000	-83.4573	0.0000000E+000	0.0000000E+000	0.0000000E+000	-6.54268	0.0000000E+000	0.0000000E+000	0.0000000E+000	6.54268	8.71914	6.54268	-0.0600591
17.0579	0.800648	0.0886825	0.805545	-6.32051	192.774	-3.33814	-500.081	105210	1275.13	1	0.213855	0.265478	0	9	-6.87754	1.23385	0.136665	1.2414	6.32051	1.27513e+06	1.15122e+07	1.15826e+07	-83.6795	0.0000000E+000	0.0000000E+000	0.0000000E+000	83.6795	0.0000000E+000	0.0000000E+000	0.0000000E+000	-83.6795	0.0000000E+000	0.0000000E+000	0.0000000E+000	-6.32051	0.0000000E+000	0.0000000E+000	0.0000000E+000	6.32051	9.02825	6.32051	-0.0569385
13.5009	0.814661	0.0879264	0.819392	-6.16009	193.281	-3.33709	-500.077	134072	1543.81	1	0.217529	0.265477	0	9	-6.94749	1.21337	0.130959	1.22042	6.16009	1.54381e+06	1.43038e+07	1.43869e+07	-83.8399	0.0000000E+000	0.0000000E+000	0.0000000E+000	83.8399	0.0000000E+000	0.0000000E+000	0.0000000E+000	-83.8399	0.0000000E+000	0.0000000E+000	0.0000000E+000	-6.16009	0.0000000E+000	0.0000000E+000	0.0000000E+000	6.16009	9.26526	6.16009	-0.06995
10.6874	0.831884	0.0843725	0.836152	-5.79133	193.715	-3.33569	-500.07	176501	1797.12	1	0.221982	0.26548	0	9	-7.00535	1.18985	0.120679	1.19595	5.79133	1.79712e+06	1.7719e+07	1.78099e+07	-84.2087	0.0000000E+000	0.0000000E+000	0.0000000E+000	84.2087	0.0000000E+000	0.0000000E+000	0.0000000E+000	-84.2087	0.0000000E+000	0.0000000E+000	0.0000000E+000	-5.79133	0.0000000E+000	0.0000000E+000	0.0000000E+000	5.79133	9.85966	5.79133	-0.0578563
8.45508	0.841894	0.0814317	0.845823	-5.52471	194.25	-3.33333	-500.055	231158	2142.58	1	0.224552	0.265484	0	9	-7.08167	1.17679	0.113824	1.18228	5.52471	2.14258e+06	2.21514e+07	2.22547e+07	-84.4753	0.0000000E+000	0.0000000E+000	0.0000000E+000	84.4753	0.0000000E+000	0.0000000E+000	0.0000000E+000	-84.4753	0.0000000E+000	0.0000000E+000	0.0000000E+000	-5.52471	0.0000000E+000	0.0000000E+000	0.0000000E+000	5.52471	10.3387	5.52471	-0.076315
6.70026	0.85879	0.0751085	0.862068	-4.99828	194.61	-3.33273	-500.069	316257	2400.68	1	0.228862	0.26548	0	9	-7.12809	1.15559	0.101066	1.16	4.99828	2.40068e+06	2.74494e+07	2.75541e+07	-85.0017	0.0000000E+000	0.0000000E+000	0.0000000E+000	85.0017	0.0000000E+000	0.0000000E+000	0.0000000E+000	-85.0017	0.0000000E+000	0.0000000E+000	0.0000000E+000	-4.99828	0.0000000E+000	0.0000000E+000	0.0000000E+000	4.99828	11.434	4.99828	-0.046423
5.30741	0.869833	0.0709399	0.872721	-4.66248	195.048	-3.33223	-500.081	422715	2793.05	1	0.231691	0.265482	0	9	-7.19167	1.14205	0.0931408	1.14584	4.66248	2.79304e+06	3.42471e+07	3.43608e+07	-85.3375	0.0000000E+000	0.0000000E+000	0.0000000E+000	85.3375	0.0000000E+000	0.0000000E+000	0.0000000E+000	-85.3375	0.0000000E+000	0.0000000E+000	0.0000000E+000	-4.66248	0.0000000E+000	0.0000000E+000	0.0000000E+000	4.66248	12.2615	4.66248	-0.0635836
4.20027	0.885974	0.0647233	0.888335	-4.17822	195.588	-3.33179	-500.054	585440	3107.78	1	0.235837	0.265482	0	9	-7.26699	1.12271	0.0820177	1.1257	4.17822	3.10778e+06	4.25413e+07	4.26547e+07	-85.8218	0.0000000E+000	0.0000000E+000	0.0000000E+000	85.8218	0.0000000E+000	0.0000000E+000	0.0000000E+000	-85.8218	0.0000000E+000	0.0000000E+000	0.0000000E+000	-4.17822	0.0000000E+000	0.0000000E+000	0.0000000E+000	4.17822	13.6886	4.17822	-0.0753129
3.3273	0.895052	0.05504	0.896742	-3.51889	196.256	-3.33292	-500.062	869061	3273.94	1	0.238071	0.265485	0	9	-7.35514	1.11305	0.0684452	1.11515	3.51889	3.27394e+06	5.32404e+07	5.33409e+07	-86.4811	0.0000000E+000	0.0000000E+000	0.0000000E+000	86.4811	0.0000000E+000	0.0000000E+000	0.0000000E+000	-86.4811	0.0000000E+000	0.0000000E+000	0.0000000E+000	-3.51889	0.0000000E+000	0.0000000E+000	0.0000000E+000	3.51889	16.2618	3.51889	-0.0881591
2.63047	0.898038	0.0577677	0.899894	-3.68057	197.091	-3.33153	-500.053	1.04737e+06	4316.08	1	0.238908	0.265484	0	9	-7.46862	1.10895	0.071335	1.11124	3.68057	4.31608e+06	6.70963e+07	6.7235e+07	-86.3194	0.0000000E+000	0.0000000E+000	0.0000000E+000	86.3194	0.0000000E+000	0.0000000E+000	0.0000000E+000	-86.3194	0.0000000E+000	0.0000000E+000	0.0000000E+000	-3.68057	0.0000000E+000	0.0000000E+000	0.0000000E+000	3.68057	15.5457	3.68057	-0.113478
2.08222	0.907525	0.0510802	0.908962	-3.2215	198.135	-3.32962	-500.058	1.49637e+06	4725.57	1	0.241315	0.265485	0	9	-7.61698	1.09842	0.0618246	1.10016	3.2215	4.72557e+06	8.39577e+07	8.40906e+07	-86.7785	0.0000000E+000	0.0000000E+000	0.0000000E+000	86.7785	0.0000000E+000	0.0000000E+000	0.0000000E+000	-86.7785	0.0000000E+000	0.0000000E+000	0.0000000E+000	-3.2215	0.0000000E+000	0.0000000E+000	0.0000000E+000	3.2215	17.7667	3.2215	-0.148359
1.64821	0.914403	0.0364919	0.915131	-2.28534	199.444	-3.32983	-500.055	2.64614e+06	4207.63	1	0.242955	0.265486	0	9	-7.80469	1.09187	0.0435742	1.09274	2.28534	4.20763e+06	1.05434e+08	1.05518e+08	-87.7147	0.0000000E+000	0.0000000E+000	0.0000000E+000	87.7147	0.0000000E+000	0.0000000E+000	0.0000000E+000	-87.7147	0.0000000E+000	0.0000000E+000	0.0000000E+000	-2.28534	0.0000000E+000	0.0000000E+000	0.0000000E+000	2.28534	25.0577	2.28534	-0.187711
1.30687	0.921741	0.0290945	0.9222	-1.80793	201.086	-3.32957	-500.059	4.18576e+06	4166.27	1	0.244827	0.265482	0	9	-8.03502	1.08382	0.0342106	1.08436	1.80793	4.16627e+06	1.31991e+08	1.32057e+08	-88.1921	0.0000000E+000	0.0000000E+000	0.0000000E+000	88.1921	0.0000000E+000	0.0000000E+000	0.0000000E+000	-88.1921	0.0000000E+000	0.0000000E+000	0.0000000E+000	-1.80793	0.0000000E+000	0.0000000E+000	0.0000000E+000	1.80793	31.6809	1.80793	-0.230324
1.03449	0.926262	0.0246266	0.92659	-1.52296	203.151	-3.32938	-500.053	6.24724e+06	4412.86	1	0.245995	0.265485	0	9	-8.31651	1.07885	0.0286833	1.07923	1.52296	4.41286e+06	1.65978e+08	1.66037e+08	-88.477	0.0000000E+000	0.0000000E+000	0.0000000E+000	88.477	0.0000000E+000	0.0000000E+000	0.0000000E+000	-88.477	0.0000000E+000	0.0000000E+000	0.0000000E+000	-1.52296	0.0000000E+000	0.0000000E+000	0.0000000E+000	1.52296	37.6123	1.52296	-0.281497
0.818234	0.924186	0.0189982	0.924381	-1.17765	205.752	-3.32817	-500.051	1.02383e+07	4324.68	1	0.245412	0.265487	0	9	-8.66649	1.08158	0.0222337	1.0818	1.17765	4.32469e+06	2.10378e+08	2.10422e+08	-88.8224	0.0000000E+000	0.0000000E+000	0.0000000E+000	88.8224	0.0000000E+000	0.0000000E+000	0.0000000E+000	-88.8224	0.0000000E+000	0.0000000E+000	0.0000000E+000	-1.17765	0.0000000E+000	0.0000000E+000	0.0000000E+000	1.17765	48.6459	1.17765	-0.349978
0.647373	0.927952	0.0152887	0.928078	-0.943903	209.032	-3.32841	-500.173	1.60804e+07	4363.81	1	0.246318	0.265407	0	9	-9.10994	1.07735	0.0177501	1.0775	0.943903	4.3638e+06	2.64863e+08	2.64899e+08	-89.0561	0.0000000E+000	0.0000000E+000	0.0000000E+000	89.0561	0.0000000E+000	0.0000000E+000	0.0000000E+000	-89.0561	0.0000000E+000	0.0000000E+000	0.0000000E+000	-0.943903	0.0000000E+000	0.0000000E+000	0.0000000E+000	0.943903	60.6954	0.943903	-0.443445
0.513035	0.930037	0.00870536	0.930078	-0.536286	213.161	-3.32799	-500.151	3.56358e+07	3121.91	1	0.246934	0.265498	0	9	-9.67915	1.07513	0.0100635	1.07518	0.536286	3.12191e+06	3.3353e+08	3.33544e+08	-89.4637	0.0000000E+000	0.0000000E+000	0.0000000E+000	89.4637	0.0000000E+000	0.0000000E+000	0.0000000E+000	-89.4637	0.0000000E+000	0.0000000E+000	0.0000000E+000	-0.536286	0.0000000E+000	0.0000000E+000	0.0000000E+000	0.536286	106.835	0.536286	-0.569214
0.406309	0.932191	0.00651364	0.932214	-0.400345	218.367	-3.32658	-500.079	6.01369e+07	2936	1	0.24751	0.265507	0	9	-10.4116	1.07269	0.00749536	1.07272	0.400345	2.936e+06	4.20183e+08	4.20193e+08	-89.5997	0.0000000E+000	0.0000000E+000	0.0000000E+000	89.5997	0.0000000E+000	0.0000000E+000	0.0000000E+000	-89.5997	0.0000000E+000	0.0000000E+000	0.0000000E+000	-0.400345	0.0000000E+000	0.0000000E+000	0.0000000E+000	0.400345	143.114	0.400345	-0.732461
0.321449	0.935537	0.00342916	0.935543	-0.210014	224.938	-3.32657	-500.056	1.44384e+08	1939.85	1	0.248375	0.265487	0	9	-11.3472	1.06889	0.00391796	1.0689	0.210014	1.93986e+06	5.29226e+08	5.29229e+08	-89.79	0.0000000E+000	0.0000000E+000	0.0000000E+000	89.79	0.0000000E+000	0.0000000E+000	0.0000000E+000	-89.79	0.0000000E+000	0.0000000E+000	0.0000000E+000	-0.210014	0.0000000E+000	0.0000000E+000	0.0000000E+000	0.210014	272.818	0.210014	-0.935598
0.254711	0.937826	0.00142813	0.937827	-0.0872505	233.225	-3.32543	-500.046	4.37526e+08	1014.6	1	0.248977	0.265483	0	9	-12.5253	1.06629	0.00162376	1.06629	0.0872505	1.01459e+06	6.66268e+08	6.66269e+08	-89.9128	0.0000000E+000	0.0000000E+000	0.0000000E+000	89.9128	0.0000000E+000	0.0000000E+000	0.0000000E+000	-89.9128	0.0000000E+000	0.0000000E+000	0.0000000E+000	-0.0872505	0.0000000E+000	0.0000000E+000	0.0000000E+000	0.0872505	656.681	0.0872505	-1.17805
0.201707	0.936392	-0.005937	0.936411	0.363267	243.681	-3.32587	-500.049	-1.32902e+08	-5342.37	1	0.248605	0.265487	0	9	-13.9925	1.06789	-0.0067707	1.06791	-0.363267	-5.34235e+06	8.42606e+08	8.42623e+08	-90.3633	0.0000000E+000	0.0000000E+000	0.0000000E+000	90.3633	0.0000000E+000	0.0000000E+000	0.0000000E+000	-90.3633	0.0000000E+000	0.0000000E+000	0.0000000E+000	0.363267	0.0000000E+000	0.0000000E+000	0.0000000E+000	-0.363267	-157.721	-0.363267	-1.4672
0.159595	0.938159	-0.0120139	0.938236	0.73368	256.89	-3.32553	-500.044	-8.30073e+07	-13610.1	1	0.249095	0.265493	0	9	-15.8131	1.06574	-0.0136477	1.06583	-0.73368	-1.36101e+07	1.0628e+09	1.06289e+09	-90.7337	0.0000000E+000	0.0000000E+000	0.0000000E+000	90.7337	0.0000000E+000	0.0000000E+000	0.0000000E+000	-90.7337	0.0000000E+000	0.0000000E+000	0.0000000E+000	0.73368	0.0000000E+000	0.0000000E+000	0.0000000E+000	-0.73368	-78.0894	-0.73368	-1.82066
0.126203	0.94106	-0.0208675	0.941291	1.27029	273.586	-3.32485	-500.048	-6.04336e+07	-29701	1	0.249908	0.265494	0	9	-18.0814	1.06211	-0.0235517	1.06237	-1.27029	-2.9701e+07	1.33942e+09	1.33975e+09	-91.2703	0.0000000E+000	0.0000000E+000	0.0000000E+000	91.2703	0.0000000E+000	0.0000000E+000	0.0000000E+000	-91.2703	0.0000000E+000	0.0000000E+000	0.0000000E+000	1.27029	0.0000000E+000	0.0000000E+000	0.0000000E+000	-1.27029	-45.0969	-1.27029	-2.26823
0.0999041	0.942305	-0.0297445	0.942774	1.80798	294.67	-3.32391	-500.049	-5.35586e+07	-53312.4	1	0.250301	0.265494	0	9	-20.9319	1.06017	-0.0334651	1.0607	-1.80798	-5.33125e+07	1.68893e+09	1.68978e+09	-91.808	0.0000000E+000	0.0000000E+000	0.0000000E+000	91.808	0.0000000E+000	0.0000000E+000	0.0000000E+000	-91.808	0.0000000E+000	0.0000000E+000	0.0000000E+000	1.80798	0.0000000E+000	0.0000000E+000	0.0000000E+000	-1.80798	-31.6799	-1.80798	-2.85058