File: Instruments/LSV_C01.mpt
EC-Lab ASCII FILE
Nb header lines : 61

Linear Sweep Voltammetry

Run on channel : 1 (SN 66181)
User :
CE vs. WE compliance from -10 V to 10 V
Electrode connection : standard
Potential control : Ewe
Ewe ctrl range : min = -10.00 V, max = 10.00 V
Safety Limits :
	Do not start on E overload
Acquisition started on : 10/21/2024 15:48:27.372
Technique started on : 10/21/2024 15:48:27.372
Loaded Setting File :  NONE
Saved on :
	File : 3-12-002_BoL-02_01_LSV_C01.mpr
	Directory : C:\Users\patri\OneDrive\Desktop\Electrolysis Data\October_21_2024-3-12-02\Pstat\
	Host : 10.0.109.145
Device : SP-50e (SN .003546)
Address : USB
EC-Lab for windows v11.43 (software)
Internet server v11.40 (firmware)
Command interpretor v11.40 (firmware)
Electrode material :
Initial state :
Electrolyte :
Comments :
Electrode surface area : 4.000 cm²
Characteristic mass : 0.001 g
Volume (V) : 0.001 cm³
Thickness (t) : 0.000 cm
Diameter (d) : 0.000 cm
Cell constant (k=t/A) : 0.000 cm-1
Cycle Definition : Charge/Discharge alternance
tR (h:m:s)          0:00:5.0000
dER/dt (mV/h)       0.0
dER (mV)            0
dtR (s)             0.0000
dE/dt               50.000
dE/dt unit          mV/s
Ei (V)              0.000
vs.                 Eoc
EL (V)              -3.500
vs.                 Ref
record              <I>
dI                  0.000
unit dI             µA
tI (s)              0.0000
step percent        50
N                   10
E range min (V)     -10.000
E range max (V)     10.000
I Range             1 A
I Range min         Unset
I Range max         Unset
I Range init        Unset
Bandwidth           5

mode	ox/red	error	control changes	time/s	control/V	Ewe/V	<I>/mA	(Q-Qo)/C	I Range	P/W
3	0	1	1	0.000000000000000E+000	0.0000000E+000	-0.669318	0.000000000000000E+000	0.0000000E+000	14	0.0000000E+000
2	0	0	0	5.006	-0.661336	-0.66188	-0.0384157	-2.84829e-07	9	2.54266e-05
2	0	0	1	5.1016	-0.666114	-0.666737	-0.605014	-5.19663e-05	9	0.000403386
2	0	0	1	5.225	-0.672283	-0.672849	-0.810261	-0.000150439	9	0.000545183
2	0	0	1	5.3483	-0.678448	-0.679009	-0.956638	-0.000269628	9	0.000649566
2	0	0	1	5.4716	-0.684614	-0.685218	-1.07168	-0.000404492	9	0.000734332
2	0	0	1	5.595	-0.690782	-0.691323	-1.15707	-0.000551921	9	0.000799912
2	0	0	1	5.7183	-0.696948	-0.697525	-1.23907	-0.000709713	9	0.00086428
2	0	0	1	5.8416	-0.703113	-0.703691	-1.32087	-0.000877444	9	0.000929483
2	0	0	1	5.965	-0.709282	-0.709885	-1.39024	-0.00105469	9	0.000986913
2	0	0	1	6.0883	-0.715448	-0.716022	-1.44948	-0.00123958	9	0.00103786
2	0	0	1	6.2116	-0.721613	-0.722175	-1.50177	-0.00143138	9	0.00108454
2	0	0	1	6.335	-0.727782	-0.728351	-1.56468	-0.00163066	9	0.00113964
2	0	0	1	6.4583	-0.733947	-0.73451	-1.60969	-0.00183582	9	0.00118234
2	0	0	1	6.5816	-0.740113	-0.74067	-1.64246	-0.00204611	9	0.00121652
2	0	0	1	6.705	-0.746282	-0.746859	-1.68415	-0.00226227	9	0.00125782
2	0	0	1	6.8283	-0.752449	-0.753001	-1.7362	-0.0024835	9	0.00130736
2	0	0	1	6.9516	-0.758614	-0.759203	-1.76178	-0.00270919	9	0.00133755
2	0	0	1	7.0749	-0.764778	-0.76536	-1.79654	-0.00293851	9	0.001375
2	0	0	1	7.1983	-0.770949	-0.771504	-1.83442	-0.00317242	9	0.00141526
2	0	0	1	7.3216	-0.777113	-0.777655	-1.85788	-0.00340994	9	0.00144479
2	0	0	1	7.4449	-0.783278	-0.783849	-1.88789	-0.00365047	9	0.00147982
2	0	0	1	7.5683	-0.789449	-0.790016	-1.90941	-0.00389458	9	0.00150846
2	0	0	1	7.6916	-0.795613	-0.796191	-1.93696	-0.00414171	9	0.00154219
2	0	0	1	7.8149	-0.801777	-0.802333	-1.95616	-0.00439113	9	0.00156949
2	0	0	1	7.9383	-0.807948	-0.808545	-1.9814	-0.00464322	9	0.00160205
2	0	0	1	8.0616	-0.814113	-0.814676	-2.01166	-0.00489894	9	0.00163885
2	0	0	1	8.1849	-0.820277	-0.820794	-2.02533	-0.00515756	9	0.00166238
2	0	0	1	8.3083	-0.826448	-0.827	-2.04521	-0.00541824	9	0.00169139
2	0	0	1	8.4316	-0.832613	-0.833136	-2.07551	-0.00568181	9	0.00172918
2	0	0	1	8.5549	-0.838777	-0.839301	-2.10133	-0.00594883	9	0.00176365
2	0	0	1	8.6783	-0.844948	-0.845481	-2.12089	-0.00621901	9	0.00179317
2	0	0	1	8.8016	-0.851112	-0.851648	-2.15586	-0.00649192	9	0.00183603
2	0	0	1	8.9249	-0.857277	-0.857822	-2.19147	-0.00676889	9	0.00187989
2	0	0	1	9.0482	-0.863444	-0.863992	-2.23001	-0.0070508	9	0.00192671
2	0	0	1	9.1716	-0.869613	-0.870144	-2.27331	-0.00733737	9	0.00197811
2	0	0	1	9.2949	-0.875779	-0.876328	-2.31763	-0.00762865	9	0.00203101
2	0	0	1	9.4182	-0.881944	-0.882455	-2.3592	-0.00792606	9	0.00208189
2	0	0	1	9.5416	-0.888113	-0.888604	-2.40805	-0.00822908	9	0.0021398
2	0	0	1	9.6649	-0.894278	-0.894793	-2.45391	-0.00853812	9	0.00219574
2	0	0	1	9.7882	-0.900444	-0.900976	-2.5048	-0.0088529	9	0.00225676
2	0	0	1	9.9116	-0.906613	-0.907122	-2.55243	-0.00917381	9	0.00231536
2	0	0	1	10.0349	-0.912778	-0.913282	-2.59707	-0.00949987	9	0.00237185
2	0	0	1	10.1582	-0.918944	-0.919529	-2.64071	-0.00983135	9	0.00242821
2	0	0	1	10.2816	-0.925112	-0.925667	-2.67891	-0.0101688	9	0.00247978
2	0	0	1	10.4049	-0.931278	-0.931801	-2.7061	-0.0105098	9	0.00252154
2	0	0	1	10.5282	-0.937443	-0.937987	-2.74043	-0.0108543	9	0.00257048
2	0	0	1	10.6516	-0.943612	-0.944131	-2.75911	-0.0112024	9	0.00260496
2	0	0	1	10.7749	-0.949777	-0.95024	-2.77965	-0.0115526	9	0.00264133
2	0	0	1	10.8982	-0.955943	-0.956459	-2.79906	-0.0119051	9	0.00267719
2	0	0	1	11.0216	-0.962112	-0.962661	-2.80698	-0.0122593	9	0.00270217
2	0	0	1	11.1449	-0.968277	-0.968776	-2.81324	-0.0126144	9	0.0027254
2	0	0	1	11.2682	-0.974444	-0.974926	-2.81656	-0.0129705	9	0.00274594
2	0	0	1	11.3915	-0.980608	-0.98116	-2.82738	-0.0133277	9	0.00277412
2	0	0	1	11.5149	-0.986779	-0.987309	-2.82429	-0.0136853	9	0.00278844
2	0	0	1	11.6382	-0.992943	-0.993412	-2.82432	-0.0140421	9	0.00280571
2	0	0	1	11.7615	-0.999108	-0.999644	-2.82547	-0.0143984	9	0.00282446
2	0	0	1	11.8849	-1.00528	-1.00578	-2.81505	-0.014754	9	0.00283132
2	0	0	1	12.0082	-1.01144	-1.01201	-2.79533	-0.0151081	9	0.0028289
2	0	0	1	12.1315	-1.01761	-1.0181	-2.7907	-0.0154601	9	0.0028412
2	0	0	1	12.2549	-1.02378	-1.02428	-2.77647	-0.0158111	9	0.00284389
2	0	0	1	12.3782	-1.02994	-1.03045	-2.75199	-0.0161595	9	0.0028358
2	0	0	1	12.5015	-1.03611	-1.03661	-2.74057	-0.0165062	9	0.00284089
2	0	0	1	12.6249	-1.04228	-1.04282	-2.73039	-0.0168515	9	0.00284731
2	0	0	1	12.7482	-1.04844	-1.04899	-2.7084	-0.017194	9	0.00284109
2	0	0	1	12.8715	-1.05461	-1.05508	-2.69037	-0.0175338	9	0.00283855
2	0	0	1	12.9949	-1.06078	-1.06129	-2.6737	-0.0178717	9	0.00283759
2	0	0	1	13.1182	-1.06694	-1.06742	-2.65596	-0.0182074	9	0.00283504
2	0	0	1	13.2415	-1.07311	-1.07358	-2.63514	-0.0185403	9	0.00282904
2	0	0	1	13.3648	-1.07927	-1.0798	-2.61335	-0.0188703	9	0.0028219
2	0	0	1	13.4882	-1.08544	-1.08599	-2.59581	-0.0191984	9	0.00281901
2	0	0	1	13.6115	-1.09161	-1.0921	-2.57304	-0.0195233	9	0.00281002
2	0	0	1	13.7348	-1.09777	-1.09831	-2.54709	-0.0198451	9	0.0027975
2	0	0	1	13.8582	-1.10394	-1.10445	-2.53037	-0.0201647	9	0.00279465
2	0	0	1	13.9815	-1.11011	-1.11061	-2.49936	-0.0204814	9	0.00277582
2	0	0	1	14.1048	-1.11627	-1.11674	-2.47765	-0.0207944	9	0.0027669
2	0	0	1	14.2282	-1.12244	-1.12293	-2.45542	-0.0211051	9	0.00275727
2	0	0	1	14.3515	-1.12861	-1.12911	-2.4333	-0.0214127	9	0.00274746
2	0	0	1	14.4748	-1.13477	-1.13528	-2.40991	-0.0217174	9	0.00273593
2	0	0	1	14.5982	-1.14094	-1.14143	-2.38807	-0.0220195	9	0.00272582
2	0	0	1	14.7215	-1.14711	-1.14757	-2.37449	-0.0223188	9	0.0027249
2	0	0	1	14.8448	-1.15327	-1.15374	-2.34449	-0.0226156	9	0.00270493
2	0	0	1	14.9682	-1.15944	-1.15989	-2.32318	-0.0229095	9	0.00269462
2	0	0	1	15.0915	-1.16561	-1.16608	-2.30625	-0.0232005	9	0.00268926
2	0	0	1	15.2148	-1.17177	-1.17225	-2.28417	-0.0234891	9	0.00267761
2	0	0	1	15.3382	-1.17794	-1.17846	-2.2639	-0.023775	9	0.0026679
2	0	0	1	15.4615	-1.18411	-1.18456	-2.2357	-0.0240576	9	0.00264831
2	0	0	1	15.5848	-1.19027	-1.19075	-2.21701	-0.024338	9	0.00263991
2	0	0	1	15.7081	-1.19644	-1.19688	-2.20276	-0.0246156	9	0.00263643
2	0	0	1	15.8315	-1.20261	-1.20306	-2.18036	-0.0248908	9	0.00262311
2	0	0	1	15.9548	-1.20877	-1.20924	-2.15865	-0.0251632	9	0.00261032
2	0	0	1	16.0781	-1.21494	-1.21536	-2.13661	-0.0254333	9	0.00259674
2	0	0	1	16.2015	-1.22111	-1.22158	-2.11117	-0.025701	9	0.00257897
2	0	0	1	16.3248	-1.22727	-1.22772	-2.10014	-0.0259658	9	0.00257839
2	0	0	1	16.4481	-1.23344	-1.2339	-2.07685	-0.0262283	9	0.00256263
2	0	0	1	16.5715	-1.23961	-1.24006	-2.06381	-0.0264889	9	0.00255925
2	0	0	1	16.6948	-1.24577	-1.2462	-2.03873	-0.0267468	9	0.00254066
2	0	0	1	16.8181	-1.25194	-1.2524	-2.0291	-0.0270025	9	0.00254125
2	0	0	1	16.9415	-1.25811	-1.25856	-2.00547	-0.0272562	9	0.00252399
2	0	0	1	17.0648	-1.26427	-1.26473	-1.98728	-0.0275077	9	0.00251338
2	0	0	1	17.1881	-1.27044	-1.27092	-1.9785	-0.0277569	9	0.00251451
2	0	0	1	17.3115	-1.27661	-1.27709	-1.95762	-0.0280046	9	0.00250005
2	0	0	1	17.4348	-1.28277	-1.28324	-1.94356	-0.0282502	9	0.00249405
2	0	0	1	17.5581	-1.28894	-1.28937	-1.92866	-0.0284937	9	0.00248675
2	0	0	1	17.6815	-1.29511	-1.29555	-1.92099	-0.0287357	9	0.00248873
2	0	0	1	17.8048	-1.30127	-1.30173	-1.90645	-0.028976	9	0.00248169
2	0	0	1	17.9281	-1.30744	-1.3079	-1.88939	-0.0292148	9	0.00247114
2	0	0	1	18.0514	-1.3136	-1.31408	-1.88261	-0.0294521	9	0.00247391
2	0	0	1	18.1748	-1.31977	-1.32026	-1.86854	-0.0296885	9	0.00246695
2	0	0	1	18.2981	-1.32594	-1.32641	-1.85989	-0.0299229	9	0.00246698
2	0	0	1	18.4214	-1.3321	-1.33254	-1.84702	-0.0301558	9	0.00246124
2	0	0	1	18.5448	-1.33827	-1.33873	-1.84489	-0.0303881	9	0.00246982
2	0	0	1	18.6681	-1.34444	-1.34491	-1.83081	-0.030619	9	0.00246226
2	0	0	1	18.7914	-1.3506	-1.351	-1.82635	-0.0308484	9	0.0024674
2	0	0	1	18.9148	-1.35677	-1.35721	-1.81459	-0.031077	9	0.00246277
2	0	0	1	19.0381	-1.36294	-1.36338	-1.8053	-0.0313042	9	0.00246131
2	0	0	1	19.1614	-1.3691	-1.36953	-1.79623	-0.0315301	9	0.00246
2	0	0	1	19.2848	-1.37527	-1.3757	-1.79173	-0.031755	9	0.00246489
2	0	0	1	19.4081	-1.38144	-1.3819	-1.78291	-0.031979	9	0.00246381
2	0	0	1	19.5314	-1.3876	-1.38803	-1.7777	-0.032202	9	0.0024675
2	0	0	1	19.6548	-1.39377	-1.3942	-1.76843	-0.0324243	9	0.00246553
2	0	0	1	19.7781	-1.39994	-1.40038	-1.76419	-0.0326452	9	0.00247053
2	0	0	1	19.9014	-1.4061	-1.40654	-1.75657	-0.0328655	9	0.00247067
2	0	0	1	20.0248	-1.41227	-1.41268	-1.75423	-0.0330854	9	0.00247815
2	0	0	1	20.1481	-1.41844	-1.41887	-1.7462	-0.0333042	9	0.00247762
2	0	0	1	20.2714	-1.4246	-1.42502	-1.73826	-0.0335222	9	0.00247706
2	0	0	1	20.3947	-1.43077	-1.43121	-1.73179	-0.0337394	9	0.00247854
2	0	0	1	20.5181	-1.43694	-1.43735	-1.72798	-0.033956	9	0.00248371
2	0	0	1	20.6414	-1.4431	-1.4435	-1.71831	-0.0341717	9	0.00248039
2	0	0	1	20.7647	-1.44927	-1.44965	-1.71713	-0.0343866	9	0.00248924
2	0	0	1	20.8881	-1.45544	-1.45585	-1.70917	-0.0346013	9	0.0024883
2	0	0	1	21.0114	-1.4616	-1.46201	-1.70767	-0.034815	9	0.00249662
2	0	0	1	21.1347	-1.46777	-1.4682	-1.70632	-0.0350282	9	0.00250522
2	0	0	1	21.2581	-1.47394	-1.47431	-1.70037	-0.0352412	9	0.00250687
2	0	0	1	21.3814	-1.4801	-1.48045	-1.6929	-0.0354538	9	0.00250626
2	0	0	1	21.5047	-1.48627	-1.48664	-1.68881	-0.0356655	9	0.00251066
2	0	0	1	21.6281	-1.49244	-1.49282	-1.69457	-0.0358772	9	0.00252969
2	0	0	1	21.7514	-1.4986	-1.49898	-1.69224	-0.0360891	9	0.00253663
2	0	0	1	21.8747	-1.50477	-1.50516	-1.69432	-0.0363009	9	0.00255022
2	0	0	1	21.9981	-1.51094	-1.51131	-1.69113	-0.036513	9	0.00255583
2	0	0	1	22.1214	-1.5171	-1.51749	-1.69764	-0.0367252	9	0.00257614
2	0	0	1	22.2447	-1.52327	-1.52366	-1.70082	-0.0369376	9	0.00259148
2	0	0	1	22.3681	-1.52944	-1.52981	-1.70251	-0.0371505	9	0.00260451
2	0	0	1	22.4914	-1.5356	-1.53599	-1.7057	-0.0373634	9	0.00261995
2	0	0	1	22.6147	-1.54177	-1.54216	-1.70282	-0.0375766	9	0.00262603
2	0	0	1	22.738	-1.54793	-1.54828	-1.71512	-0.0377905	9	0.00265548
2	0	0	1	22.8614	-1.5541	-1.5545	-1.72699	-0.0380058	9	0.00268462
2	0	0	1	22.9847	-1.56027	-1.56064	-1.73491	-0.0382221	9	0.00270757
2	0	0	1	23.108	-1.56643	-1.56679	-1.7501	-0.0384395	9	0.00274204
2	0	0	1	23.2314	-1.5726	-1.57299	-1.75748	-0.0386589	9	0.00276449
2	0	0	1	23.3547	-1.57877	-1.57911	-1.78238	-0.0388803	9	0.00281457
2	0	0	1	23.478	-1.58493	-1.58529	-1.79897	-0.0391036	9	0.00285188
2	0	0	1	23.6014	-1.5911	-1.59148	-1.81181	-0.0393292	9	0.00288345
2	0	0	1	23.7247	-1.59727	-1.59762	-1.8344	-0.0395572	9	0.00293067
2	0	0	1	23.848	-1.60343	-1.60381	-1.86331	-0.0397881	9	0.00298839
2	0	0	1	23.9714	-1.6096	-1.60998	-1.88419	-0.0400221	9	0.00303351
2	0	0	1	24.0947	-1.61577	-1.61615	-1.9183	-0.0402595	9	0.00310026
2	0	0	1	24.218	-1.62193	-1.6223	-1.94927	-0.0405006	9	0.00316231
2	0	0	1	24.3414	-1.6281	-1.62842	-1.98243	-0.0407459	9	0.00322823
2	0	0	1	24.4647	-1.63427	-1.63461	-2.03304	-0.0409964	9	0.00332324
2	0	0	1	24.588	-1.64043	-1.64082	-2.06821	-0.0412521	9	0.00339355
2	0	0	1	24.7113	-1.6466	-1.64696	-2.11966	-0.0415132	9	0.00349101
2	0	0	1	24.8347	-1.65277	-1.65314	-2.17309	-0.0417804	9	0.00359242
2	0	0	1	24.958	-1.65893	-1.65932	-2.22255	-0.0420543	9	0.00368791
2	0	0	1	25.0813	-1.6651	-1.66548	-2.28489	-0.0423354	9	0.00380544
2	0	0	1	25.2047	-1.67127	-1.67164	-2.34302	-0.0426241	9	0.00391669
2	0	0	1	25.328	-1.67743	-1.67775	-2.41319	-0.0429201	9	0.00404872
2	0	0	1	25.4513	-1.6836	-1.68394	-2.48998	-0.0432252	9	0.00419297
2	0	0	1	25.5747	-1.68977	-1.69012	-2.55418	-0.0435397	9	0.00431688
2	0	0	1	25.698	-1.69593	-1.69628	-2.63772	-0.0438633	9	0.00447432
2	0	0	1	25.8213	-1.7021	-1.70243	-2.72527	-0.0441976	9	0.00463958
2	0	0	1	25.9447	-1.70827	-1.70858	-2.81599	-0.0445434	9	0.00481136
2	0	0	1	26.068	-1.71443	-1.71474	-2.9139	-0.0449004	9	0.00499657
2	0	0	1	26.1913	-1.7206	-1.72097	-3.0264	-0.0452699	9	0.00520833
2	0	0	1	26.3147	-1.72677	-1.72708	-3.11588	-0.0456529	9	0.00538139
2	0	0	1	26.438	-1.73293	-1.73327	-3.22746	-0.0460483	9	0.00559407
2	0	0	1	26.5613	-1.7391	-1.73941	-3.33759	-0.0464572	9	0.00580543
2	0	0	1	26.6847	-1.74527	-1.74555	-3.45735	-0.0468807	9	0.006035
2	0	0	1	26.808	-1.75143	-1.75178	-3.57671	-0.0473191	9	0.00626559
2	0	0	1	26.9313	-1.7576	-1.75785	-3.68364	-0.0477714	9	0.0064753
2	0	0	1	27.0546	-1.76376	-1.7641	-3.8174	-0.0482385	9	0.00673428
2	0	0	1	27.178	-1.76993	-1.77027	-3.94436	-0.0487222	9	0.00698259
2	0	0	1	27.3013	-1.7761	-1.77643	-4.06264	-0.0492213	9	0.007217
2	0	0	1	27.4246	-1.78226	-1.78257	-4.20602	-0.0497361	9	0.00749752
2	0	0	1	27.548	-1.78843	-1.78875	-4.32823	-0.050268	9	0.00774213
2	0	0	1	27.6713	-1.7946	-1.79493	-4.45587	-0.0508149	9	0.00799797
2	0	0	1	27.7946	-1.80076	-1.80106	-4.56078	-0.051376	9	0.00821425
2	0	0	1	27.918	-1.80693	-1.80721	-4.6938	-0.051953	9	0.00848269
2	0	0	1	28.0413	-1.8131	-1.8134	-4.80484	-0.0525445	9	0.00871308
2	0	0	1	28.1646	-1.81926	-1.81961	-4.90346	-0.0531483	9	0.00892241
2	0	0	1	28.288	-1.82543	-1.82574	-5.01113	-0.0537656	9	0.00914902
2	0	0	1	28.4113	-1.8316	-1.83189	-5.11109	-0.0543964	9	0.00936294
2	0	0	1	28.5346	-1.83776	-1.83801	-5.20665	-0.0550388	9	0.00956985
2	0	0	1	28.658	-1.84393	-1.84426	-5.28841	-0.0556922	9	0.00975318
2	0	0	1	28.7813	-1.8501	-1.85038	-5.38392	-0.0563572	9	0.0099623
2	0	0	1	28.9046	-1.85626	-1.85657	-5.44918	-0.0570319	9	0.0101168
2	0	0	1	29.0279	-1.86243	-1.86275	-5.50219	-0.0577143	9	0.0102492
2	0	0	1	29.1513	-1.8686	-1.86892	-5.59347	-0.0584056	9	0.0104537
2	0	0	1	29.2746	-1.87476	-1.87504	-5.6407	-0.0591052	9	0.0105765
2	0	0	1	29.3979	-1.88093	-1.8812	-5.68222	-0.0598095	9	0.0106894
2	0	0	1	29.5213	-1.8871	-1.88739	-5.72355	-0.0605194	9	0.0108026
2	0	0	1	29.6446	-1.89326	-1.89356	-5.78645	-0.0612367	9	0.010957
2	0	0	1	29.7679	-1.89943	-1.89968	-5.82621	-0.0619594	9	0.0110679
2	0	0	1	29.8913	-1.9056	-1.90586	-5.8575	-0.0626869	9	0.0111636
2	0	0	1	30.0146	-1.91176	-1.91204	-5.94514	-0.0634209	9	0.0113673
2	0	0	1	30.1379	-1.91793	-1.91822	-5.99563	-0.0641636	9	0.011501
2	0	0	1	30.2613	-1.9241	-1.9244	-6.03497	-0.0649129	9	0.0116137
2	0	0	1	30.3846	-1.93026	-1.93053	-6.10884	-0.0656684	9	0.0117933
2	0	0	1	30.5079	-1.93643	-1.93671	-6.19447	-0.0664354	9	0.0119969
2	0	0	1	30.6313	-1.9426	-1.94286	-6.26232	-0.0672115	9	0.0121668
2	0	0	1	30.7546	-1.94876	-1.94903	-6.32704	-0.067994	9	0.0123316
2	0	0	1	30.8779	-1.95493	-1.95519	-6.42711	-0.0687867	9	0.0125662
2	0	0	1	31.0013	-1.9611	-1.96138	-6.47081	-0.0695892	9	0.0126917
2	0	0	1	31.1246	-1.96726	-1.96754	-6.51565	-0.0703969	9	0.0128198
2	0	0	1	31.2479	-1.97343	-1.97369	-6.58691	-0.0712115	9	0.0130005
2	0	0	1	31.3712	-1.97959	-1.97989	-6.66071	-0.0720369	9	0.0131875
2	0	0	1	31.4946	-1.98576	-1.98603	-6.69323	-0.0728684	9	0.013293
2	0	0	1	31.6179	-1.99193	-1.99217	-6.74068	-0.073704	9	0.0134286
2	0	0	1	31.7412	-1.99809	-1.99838	-6.8345	-0.0745487	9	0.0136579
2	0	0	1	31.8646	-2.00426	-2.00449	-6.87237	-0.075402	9	0.0137756
2	0	0	1	31.9879	-2.01043	-2.01066	-6.88587	-0.0762579	9	0.0138452
2	0	0	1	32.1112	-2.01659	-2.01688	-6.96117	-0.0771182	9	0.0140399
2	0	0	1	32.2346	-2.02276	-2.02302	-7.00119	-0.0779875	9	0.0141636
2	0	0	1	32.3579	-2.02893	-2.02918	-7.00714	-0.0788593	9	0.0142188
2	0	0	1	32.4812	-2.03509	-2.03535	-7.0485	-0.0797326	9	0.0143462
2	0	0	1	32.6046	-2.04126	-2.0415	-7.10933	-0.0806134	9	0.0145137
2	0	0	1	32.7279	-2.04743	-2.04762	-7.11376	-0.0814977	9	0.0145663
2	0	0	1	32.8512	-2.05359	-2.05381	-7.11765	-0.0823826	9	0.0146183
2	0	0	1	32.9746	-2.05976	-2.05998	-7.18003	-0.083272	9	0.0147907
2	0	0	1	33.0979	-2.06593	-2.06618	-7.20265	-0.0841663	9	0.014882
2	0	0	1	33.2212	-2.07209	-2.07231	-7.19261	-0.0850613	9	0.0149053
2	0	0	1	33.3446	-2.07826	-2.0785	-7.23192	-0.0859582	9	0.0150316
2	0	0	1	33.4679	-2.08443	-2.08463	-7.29333	-0.0868615	9	0.0152039
2	0	0	1	33.5912	-2.09059	-2.09088	-7.30345	-0.0877692	9	0.0152706
2	0	0	1	33.7145	-2.09676	-2.09697	-7.31851	-0.0886784	9	0.0153467
2	0	0	1	33.8379	-2.10293	-2.10313	-7.3994	-0.0895943	9	0.0155619
2	0	0	1	33.9612	-2.10909	-2.1093	-7.44584	-0.0905177	9	0.0157055
2	0	0	1	34.0845	-2.11526	-2.11549	-7.45556	-0.0914433	9	0.0157722
2	0	0	1	34.2079	-2.12143	-2.12163	-7.50661	-0.0923733	9	0.0159263
2	0	0	1	34.3312	-2.12759	-2.1278	-7.5756	-0.0933125	9	0.0161194
2	0	0	1	34.4545	-2.13376	-2.13395	-7.58949	-0.0942555	9	0.0161956
2	0	0	1	34.5779	-2.13993	-2.14013	-7.60976	-0.0952009	9	0.0162859
2	0	0	1	34.7012	-2.14609	-2.14628	-7.70025	-0.0961526	9	0.0165269
2	0	0	1	34.8245	-2.15226	-2.15246	-7.71617	-0.097111	9	0.0166087
2	0	0	1	34.9479	-2.15843	-2.15862	-7.72211	-0.0980719	9	0.0166691
2	0	0	1	35.0712	-2.16459	-2.16481	-7.77243	-0.0990351	9	0.0168258
2	0	0	1	35.1945	-2.17076	-2.171	-7.84768	-0.100008	9	0.0170373
2	0	0	1	35.3179	-2.17693	-2.17713	-7.85351	-0.100986	9	0.0170981
2	0	0	1	35.4412	-2.18309	-2.18328	-7.89102	-0.101964	9	0.0172283
2	0	0	1	35.5645	-2.18926	-2.18943	-7.98135	-0.10295	9	0.0174746
2	0	0	1	35.6879	-2.19543	-2.19558	-7.99949	-0.103945	9	0.0175635
2	0	0	1	35.8112	-2.20159	-2.20205	-8.01278	-0.10494	9	0.0176445
2	0	0	1	35.9345	-2.20776	-2.20836	-8.08841	-0.10594	9	0.0178621
2	0	0	1	36.0578	-2.21392	-2.2145	-8.13167	-0.106949	9	0.0180076
2	0	0	1	36.1812	-2.22009	-2.22062	-8.11418	-0.10796	9	0.0180185
2	0	0	1	36.3045	-2.22626	-2.22677	-8.1438	-0.10897	9	0.0181344
2	0	0	1	36.4278	-2.23242	-2.23292	-8.19945	-0.109986	9	0.0183087
2	0	0	1	36.5512	-2.23859	-2.23916	-8.19401	-0.111006	9	0.0183477
2	0	0	1	36.6745	-2.24476	-2.24527	-8.18508	-0.112023	9	0.0183777
2	0	0	1	36.7978	-2.25092	-2.25143	-8.23764	-0.113043	9	0.0185464
2	0	0	1	36.9212	-2.25709	-2.25764	-8.25516	-0.11407	9	0.0186372
2	0	0	1	37.0445	-2.26326	-2.2638	-8.25413	-0.115096	9	0.0186857
2	0	0	1	37.1678	-2.26942	-2.26995	-8.2685	-0.116122	9	0.0187691
2	0	0	1	37.2912	-2.27559	-2.27608	-8.31142	-0.117155	9	0.0189175
2	0	0	1	37.4145	-2.28176	-2.28228	-8.30497	-0.118188	9	0.0189542
2	0	0	1	37.5378	-2.28792	-2.28849	-8.30313	-0.119219	9	0.0190016
2	0	0	1	37.6612	-2.29409	-2.29465	-8.37841	-0.120255	9	0.0192255
2	0	0	1	37.7845	-2.30026	-2.30081	-8.37525	-0.121296	9	0.0192698
2	0	0	1	37.9078	-2.30642	-2.30699	-8.37755	-0.122337	9	0.0193269
2	0	0	1	38.0312	-2.31259	-2.3131	-8.42572	-0.12338	9	0.0194895
2	0	0	1	38.1545	-2.31876	-2.31928	-8.48608	-0.124432	9	0.0196816
2	0	0	1	38.2778	-2.32492	-2.32548	-8.51564	-0.125489	9	0.0198029
2	0	0	1	38.4011	-2.33109	-2.33162	-8.54711	-0.126549	9	0.0199286
2	0	0	1	38.5245	-2.33726	-2.33777	-8.67919	-0.12762	9	0.0202899
2	0	0	1	38.6478	-2.34342	-2.34397	-8.72127	-0.128701	9	0.0204424
2	0	0	1	38.7711	-2.34959	-2.35012	-8.74975	-0.129787	9	0.020563
2	0	0	1	38.8945	-2.35576	-2.35631	-8.86096	-0.130881	9	0.0208792
2	0	0	1	39.0178	-2.36192	-2.36244	-8.97558	-0.131991	9	0.0212043
2	0	0	1	39.1411	-2.36809	-2.36864	-9.02511	-0.133109	9	0.0213773
2	0	0	1	39.2645	-2.37426	-2.37481	-9.11046	-0.134236	9	0.0216356
2	0	0	1	39.3878	-2.38042	-2.381	-9.27019	-0.135377	9	0.0220723
2	0	0	1	39.5111	-2.38659	-2.38718	-9.32375	-0.136531	9	0.0222574
2	0	0	1	39.6345	-2.39276	-2.39331	-9.36881	-0.137693	9	0.0224225
2	0	0	1	39.7578	-2.39892	-2.39946	-9.5146	-0.138865	9	0.0228299
2	0	0	1	39.8811	-2.40509	-2.40562	-9.60497	-0.140054	9	0.0231059
2	0	0	1	40.0045	-2.41126	-2.41181	-9.66672	-0.141252	9	0.0233143
2	0	0	1	40.1278	-2.41742	-2.41791	-9.76378	-0.142457	9	0.0236079
2	0	0	1	40.2511	-2.42359	-2.42411	-9.95418	-0.143681	9	0.02413
2	0	0	1	40.3744	-2.42975	-2.43029	-10.0509	-0.144923	9	0.0244266
2	0	0	1	40.4978	-2.43592	-2.43646	-10.1264	-0.146175	9	0.0246725
2	0	0	1	40.6211	-2.44209	-2.44262	-10.2971	-0.147442	9	0.025152
2	0	0	1	40.7444	-2.44825	-2.44877	-10.4327	-0.14873	9	0.0255473
2	0	0	1	40.8678	-2.45442	-2.45497	-10.5142	-0.150031	9	0.0258121
2	0	0	1	40.9911	-2.46059	-2.4612	-10.6544	-0.151343	9	0.0262226
2	0	0	1	41.1144	-2.46675	-2.46731	-10.8396	-0.152678	9	0.0267448
2	0	0	1	41.2378	-2.47292	-2.47347	-10.9327	-0.15403	9	0.0270417
2	0	0	1	41.3611	-2.47909	-2.47962	-11.0373	-0.155392	9	0.0273683
2	0	0	1	41.4844	-2.48525	-2.48577	-11.2443	-0.156773	9	0.0279507
2	0	0	1	41.6078	-2.49142	-2.49194	-11.3442	-0.158176	9	0.0282691
2	0	0	1	41.7311	-2.49759	-2.4981	-11.447	-0.159591	9	0.0285957
2	0	0	1	41.8544	-2.50375	-2.50425	-11.6412	-0.161023	9	0.0291526
2	0	0	1	41.9778	-2.50992	-2.51045	-11.8371	-0.162482	9	0.0297165
2	0	0	1	42.1011	-2.51609	-2.51659	-11.981	-0.16396	9	0.0301513
2	0	0	1	42.2244	-2.52225	-2.52283	-12.1521	-0.165455	9	0.0306578
2	0	0	1	42.3478	-2.52842	-2.52901	-12.4199	-0.166979	9	0.03141
2	0	0	1	42.4711	-2.53459	-2.53512	-12.6291	-0.168532	9	0.0320164
2	0	0	1	42.5944	-2.54075	-2.54126	-12.7843	-0.170108	9	0.0324882
2	0	0	1	42.7177	-2.54692	-2.54741	-13.0421	-0.171708	9	0.0332237
2	0	0	1	42.8411	-2.55309	-2.55362	-13.2967	-0.173345	9	0.0339548
2	0	0	1	42.9644	-2.55925	-2.55978	-13.4774	-0.175004	9	0.0344992
2	0	0	1	43.0877	-2.56542	-2.56592	-13.6929	-0.176687	9	0.0351349
2	0	0	1	43.2111	-2.57159	-2.57208	-14.0154	-0.178406	9	0.0360488
2	0	0	1	43.3344	-2.57775	-2.57828	-14.2215	-0.180155	9	0.0366668
2	0	0	1	43.4577	-2.58392	-2.58443	-14.4164	-0.18193	9	0.0372582
2	0	0	1	43.5811	-2.59009	-2.59058	-14.7272	-0.183736	9	0.038152
2	0	0	1	43.7044	-2.59625	-2.59675	-15.032	-0.185582	9	0.0390343
2	0	0	1	43.8277	-2.60242	-2.6029	-15.2714	-0.187461	9	0.0397498
2	0	0	1	43.9511	-2.60859	-2.60913	-15.5644	-0.189371	9	0.0406095
2	0	0	1	44.0744	-2.61475	-2.61525	-15.9358	-0.191322	9	0.0416761
2	0	0	1	44.1977	-2.62092	-2.62143	-16.2167	-0.193313	9	0.042511
2	0	0	1	44.3211	-2.62709	-2.62758	-16.4855	-0.195339	9	0.043317
2	0	0	1	44.4444	-2.63325	-2.63374	-16.8819	-0.197404	9	0.0444624
2	0	0	1	44.5677	-2.63942	-2.63995	-17.2107	-0.199516	9	0.0454353
2	0	0	1	44.6911	-2.64559	-2.6461	-17.4887	-0.201667	9	0.0462767
2	0	0	1	44.8144	-2.65175	-2.65225	-17.8643	-0.203855	9	0.0473807
2	0	0	1	44.9377	-2.65792	-2.65839	-18.2826	-0.206094	9	0.0486022
2	0	0	1	45.061	-2.66408	-2.66455	-18.5957	-0.208377	9	0.0495492
2	0	0	1	45.1844	-2.67025	-2.67075	-18.951	-0.210702	9	0.0506134
2	0	0	1	45.3077	-2.67642	-2.67687	-19.449	-0.213078	9	0.0520623
2	0	0	1	45.431	-2.68258	-2.68309	-19.8352	-0.215509	9	0.0532196
2	0	0	1	45.5544	-2.68875	-2.68926	-20.2038	-0.217989	9	0.0543335
2	0	0	1	45.6777	-2.69492	-2.69534	-20.6834	-0.220518	9	0.055749
2	0	0	1	45.801	-2.70108	-2.70158	-21.2255	-0.223114	9	0.0573423
2	0	0	1	45.9244	-2.70725	-2.7077	-21.6689	-0.22577	9	0.0586729
2	0	0	1	46.0477	-2.71342	-2.7139	-22.1167	-0.228478	9	0.0600225
2	0	0	1	46.171	-2.71958	-2.72006	-22.7523	-0.231254	9	0.0618877
2	0	0	1	46.2944	-2.72575	-2.72621	-23.2267	-0.2341	9	0.063321
2	0	0	1	46.4177	-2.73192	-2.73239	-23.693	-0.237002	9	0.0647385
2	0	0	1	46.541	-2.73808	-2.73855	-24.3118	-0.239971	9	0.0665789
2	0	0	1	46.6644	-2.74425	-2.7447	-24.9094	-0.243021	9	0.068369
2	0	0	1	46.7877	-2.75042	-2.7509	-25.4585	-0.246138	9	0.0700338
2	0	0	1	46.911	-2.75658	-2.75709	-26.0772	-0.249323	9	0.0718971
2	0	0	1	47.0343	-2.76275	-2.76322	-26.8786	-0.252597	9	0.0742715
2	0	0	1	47.1577	-2.76892	-2.7694	-27.5159	-0.255962	9	0.0762025
2	0	0	1	47.281	-2.77508	-2.77555	-28.148	-0.259403	9	0.0781261
2	0	0	1	47.4043	-2.78125	-2.78174	-28.9821	-0.262934	9	0.0806207
2	0	0	1	47.5277	-2.78742	-2.78785	-29.789	-0.266574	9	0.0830472
2	0	0	1	47.651	-2.79358	-2.794	-30.5233	-0.270304	9	0.0852821
2	0	0	1	47.7743	-2.79975	-2.80022	-31.3947	-0.274129	9	0.087912
2	0	0	1	47.8977	-2.80592	-2.80635	-32.3756	-0.278076	9	0.0908575
2	0	0	1	48.021	-2.81208	-2.81251	-33.2064	-0.282129	9	0.0933935
2	0	0	1	48.1443	-2.81825	-2.8187	-34.0951	-0.286288	9	0.096104
2	0	0	1	48.2677	-2.82442	-2.82483	-35.2437	-0.290575	9	0.0995577
2	0	0	1	48.391	-2.83058	-2.83103	-36.1905	-0.294989	9	0.102456
2	0	0	1	48.5143	-2.83675	-2.83712	-37.163	-0.299522	9	0.105436
2	0	0	1	48.6377	-2.84292	-2.84335	-38.3518	-0.30419	9	0.109048
2	0	0	1	48.761	-2.84908	-2.8495	-39.6387	-0.309013	9	0.11295
2	0	0	1	48.8843	-2.85525	-2.85566	-40.7938	-0.313983	9	0.116493
2	0	0	1	49.0077	-2.86142	-2.86184	-42.0016	-0.3191	9	0.120202
2	0	0	1	49.131	-2.86758	-2.86802	-43.5134	-0.324383	9	0.124797
2	0	0	1	49.2543	-2.87375	-2.87415	-44.8518	-0.329843	9	0.128911
2	0	0	1	49.3776	-2.87991	-2.88033	-46.1376	-0.335463	9	0.132892
2	0	0	1	49.501	-2.88608	-2.88651	-47.7057	-0.341262	9	0.137703
2	0	0	1	49.6243	-2.89225	-2.89266	-49.2093	-0.347257	9	0.142346
2	0	0	1	49.7476	-2.89841	-2.89883	-50.6541	-0.353426	9	0.146838
2	0	0	1	49.871	-2.90458	-2.90497	-52.2325	-0.359781	9	0.151734
2	0	0	1	49.9943	-2.91075	-2.91115	-54.1186	-0.366349	9	0.157548
2	0	0	1	50.1176	-2.91691	-2.91732	-55.6581	-0.373125	9	0.162372
2	0	0	1	50.241	-2.92308	-2.92352	-57.2516	-0.380101	9	0.167376
2	0	0	1	50.3643	-2.92925	-2.92957	-59.2855	-0.387295	9	0.173681
2	0	0	1	50.4876	-2.93541	-2.93582	-61.1208	-0.39474	9	0.179439
2	0	0	1	50.611	-2.94158	-2.94201	-62.8984	-0.402407	9	0.185048
2	0	0	1	50.7343	-2.94775	-2.94817	-64.8848	-0.410291	9	0.191291
2	0	0	1	50.8576	-2.95391	-2.95436	-67.2164	-0.418447	9	0.198581
2	0	0	1	50.981	-2.96008	-2.96052	-69.0165	-0.426859	9	0.204325
2	0	0	1	51.1043	-2.96625	-2.96668	-70.9304	-0.435495	9	0.210428
2	0	0	1	51.2276	-2.97241	-2.9728	-73.4367	-0.444407	9	0.218313
2	0	0	1	51.3509	-2.97858	-2.97897	-75.4375	-0.453603	9	0.224726
2	0	0	1	51.4743	-2.98475	-2.98517	-77.4015	-0.463049	9	0.231056
2	0	0	1	51.5976	-2.99091	-2.99129	-79.8747	-0.472749	9	0.238928
2	0	0	1	51.7209	-2.99708	-2.99745	-82.2055	-0.48277	9	0.246407
2	0	0	1	51.8443	-3.00325	-3.00361	-84.2833	-0.493055	9	0.253154
2	0	0	1	51.9676	-3.00941	-3.0098	-86.4479	-0.503586	9	0.260191
2	0	0	1	52.0909	-3.01558	-3.01597	-89.5111	-0.51445	9	0.269963
2	0	0	1	52.2143	-3.02175	-3.02216	-91.7174	-0.525645	9	0.277184
2	0	0	1	52.3376	-3.02791	-3.02829	-93.7679	-0.537094	9	0.283957
2	0	0	1	52.4609	-3.03408	-3.03447	-96.7727	-0.548842	9	0.293654
2	0	0	1	52.5843	-3.04025	-3.04064	-99.3931	-0.560987	9	0.302219
2	0	0	1	52.7076	-3.04641	-3.04678	-101.614	-0.5734	9	0.309594
2	0	0	1	52.8309	-3.05258	-3.05293	-104.099	-0.586081	9	0.317807
2	0	0	1	52.9543	-3.05875	-3.05917	-107.889	-0.599177	9	0.33005
2	0	0	1	53.0776	-3.06491	-3.0653	-109.841	-0.612592	9	0.336696
2	0	0	1	53.2009	-3.07108	-3.07147	-111.76	-0.626263	9	0.343266
2	0	0	1	53.3243	-3.07725	-3.0776	-115.49	-0.640282	9	0.355433
2	0	0	1	53.4476	-3.08341	-3.08382	-117.799	-0.654742	9	0.36327
2	0	0	1	53.5709	-3.08958	-3.08992	-120.293	-0.669459	9	0.371695
2	0	0	1	53.6942	-3.09574	-3.09615	-123.069	-0.68445	9	0.38104
2	0	0	1	53.8176	-3.10191	-3.10233	-127.826	-0.699952	9	0.396559
2	0	0	1	53.9409	-3.10808	-3.10846	-129.651	-0.715816	9	0.403015
2	0	0	1	54.0642	-3.11424	-3.11465	-131.531	-0.731923	9	0.409674
2	0	0	1	54.1876	-3.12041	-3.12074	-136.271	-0.748441	9	0.425268
2	0	0	1	54.3109	-3.12658	-3.12692	-139.204	-0.765512	9	0.435278
2	0	0	1	54.4342	-3.13274	-3.13312	-141.347	-0.78285	9	0.442858
2	0	0	1	54.5576	-3.13891	-3.13928	-144.967	-0.800487	9	0.455092
2	0	0	1	54.6809	-3.14508	-3.14545	-150.581	-0.818737	9	0.473643
2	0	0	1	54.8042	-3.15124	-3.15161	-152.315	-0.837384	9	0.480035
2	0	0	1	54.9276	-3.15741	-3.15778	-154.186	-0.856285	9	0.486883
2	0	0	1	55.0509	-3.16358	-3.16392	-160.111	-0.875666	9	0.506578
2	0	0	1	55.1742	-3.16974	-3.17013	-163.928	-0.895653	9	0.519671
2	0	0	1	55.2976	-3.17591	-3.1763	-165.894	-0.91605	9	0.526927
2	0	0	1	55.4209	-3.18208	-3.18245	-170.309	-0.936737	9	0.542001
2	0	0	1	55.5442	-3.18824	-3.1886	-176.388	-0.958157	9	0.56243
2	0	0	1	55.6676	-3.19441	-3.19477	-178.325	-0.980041	9	0.56971
2	0	0	1	55.7909	-3.20058	-3.20092	-180.688	-1.00215	9	0.578367
2	0	0	1	55.9142	-3.20674	-3.20707	-187.978	-1.02489	9	0.602859
2	0	0	1	56.0375	-3.21291	-3.2132	-192.308	-1.04836	9	0.617926
2	0	0	1	56.1609	-3.21908	-3.2194	-193.954	-1.07221	9	0.624417
2	0	0	1	56.2842	-3.22524	-3.22558	-199.954	-1.09646	9	0.644969
2	0	0	1	56.4075	-3.23141	-3.23172	-205.422	-1.12155	9	0.663867
2	0	0	1	56.5309	-3.23758	-3.23789	-209.03	-1.1472	9	0.676815
2	0	0	1	56.6542	-3.24374	-3.24405	-212.356	-1.17315	9	0.688893
2	0	0	1	56.7775	-3.24991	-3.25025	-220.472	-1.19986	9	0.71659
2	0	0	1	56.9009	-3.25608	-3.25638	-224.21	-1.22729	9	0.730115
2	0	0	1	57.0242	-3.26224	-3.26258	-226.958	-1.2551	9	0.740466
2	0	0	1	57.1475	-3.26841	-3.26869	-234.444	-1.28352	9	0.766327
2	0	0	1	57.2709	-3.27458	-3.2749	-241.263	-1.31292	9	0.790112
2	0	0	1	57.3942	-3.28074	-3.28109	-243.479	-1.34288	9	0.798878
2	0	0	1	57.5175	-3.28691	-3.28719	-247.952	-1.37315	9	0.815066
2	0	0	1	57.6409	-3.29308	-3.2934	-256.963	-1.40434	9	0.846282
2	0	0	1	57.7642	-3.29924	-3.29958	-262.727	-1.43638	9	0.866889
2	0	0	1	57.8875	-3.30541	-3.30574	-264.262	-1.46883	9	0.873581
2	0	0	1	58.0109	-3.31158	-3.31188	-272.498	-1.50193	9	0.902481
2	0	0	1	58.1342	-3.31774	-3.31804	-279.086	-1.53603	9	0.926019
2	0	0	1	58.2575	-3.32391	-3.32424	-283.106	-1.57081	9	0.941115
2	0	0	1	58.3808	-3.33007	-3.33036	-288.816	-1.60602	9	0.961863
2	0	0	1	58.5042	-3.33624	-3.33654	-297.885	-1.64226	9	0.993905
2	0	0	1	58.6275	-3.34241	-3.34273	-303.634	-1.67935	9	1.01497
2	0	0	1	58.7508	-3.34857	-3.34889	-306.975	-1.71696	9	1.02802
2	0	0	1	58.8742	-3.35474	-3.35506	-315.944	-1.75539	9	1.06001
2	0	0	1	58.9975	-3.36091	-3.36119	-322.698	-1.79487	9	1.08465
2	0	0	1	59.1208	-3.36707	-3.36738	-327.344	-1.83499	9	1.10229
2	0	0	1	59.2442	-3.37324	-3.37356	-334.961	-1.87583	9	1.13001
2	0	0	1	59.3675	-3.37941	-3.37971	-344.129	-1.91774	9	1.16305
2	0	0	1	59.4908	-3.38557	-3.38585	-349.615	-1.96055	9	1.18374
2	0	0	1	59.6142	-3.39174	-3.39207	-354.81	-2.00399	9	1.20354
2	0	0	1	59.7375	-3.39791	-3.39818	-364.907	-2.04839	9	1.24002
2	0	0	1	59.8608	-3.40407	-3.40436	-373.992	-2.09388	9	1.2732
2	0	0	1	59.9842	-3.41024	-3.41051	-376.875	-2.1402	9	1.28534
2	0	0	1	60.1075	-3.41641	-3.4167	-385.332	-2.18717	9	1.31656
2	0	0	1	60.2308	-3.42257	-3.42286	-393.658	-2.23528	9	1.34744
2	0	0	1	60.3542	-3.42874	-3.42902	-400.996	-2.28452	9	1.37502
2	0	0	1	60.4775	-3.43491	-3.43515	-406.984	-2.33429	9	1.39805
2	0	0	1	60.6008	-3.44107	-3.44133	-416.951	-2.38512	9	1.43486
2	0	0	1	60.7241	-3.44724	-3.44755	-427.521	-2.43713	9	1.4739
2	0	0	1	60.8475	-3.45341	-3.45369	-429.726	-2.48994	9	1.48414
2	0	0	1	60.9708	-3.45957	-3.45983	-439.334	-2.5435	9	1.52002
2	0	0	1	61.0941	-3.46574	-3.46601	-447.527	-2.59825	9	1.55113
2	0	0	1	61.2175	-3.47191	-3.47215	-455.085	-2.65415	9	1.58012
2	0	0	1	61.3408	-3.47807	-3.47834	-462.775	-2.71072	9	1.60969
2	0	0	1	61.4641	-3.48424	-3.48447	-473.003	-2.76844	9	1.64816
2	0	0	1	61.5875	-3.49041	-3.49065	-482.587	-2.8274	9	1.68454
2	0	0	1	61.7108	-3.49657	-3.49685	-487.681	-2.88717	9	1.70534
2	0	0	0	61.7764	-3.50012	-3.50043	-493.301	-2.91931	9	1.72677